freqs [eV],Lambda [1/ps]
0.000000,-0.000698
0.002500,-0.000398
0.005000,0.000545
0.007500,0.002248
0.010000,0.004869
0.012500,0.008547
0.015000,0.013325
0.017500,0.019055
0.020000,0.025336
0.022500,0.031513
0.025000,0.036777
0.027500,0.040393
0.030000,0.042006
0.032500,0.041974
0.035000,0.041566
0.037500,0.042900
0.040000,0.048521
0.042500,0.060648
0.045000,0.080282
0.047500,0.106503
0.050000,0.136289
0.052500,0.165037
0.055000,0.187677
0.057500,0.200029
0.060000,0.199907
0.062500,0.187601
0.065000,0.165622
0.067500,0.137888
0.070000,0.108692
0.072500,0.081813
0.075000,0.059956
0.077500,0.044581
0.080000,0.036024
0.082500,0.033767
0.085000,0.036732
0.087500,0.043508
0.090000,0.052508
0.092500,0.062088
0.095000,0.070684
0.097500,0.076996
0.100000,0.080207
0.102500,0.080158
0.105000,0.077388
0.107500,0.072992
0.110000,0.068301
0.112500,0.064504
0.115000,0.062318
0.117500,0.061863
0.120000,0.062756
0.122500,0.064367
0.125000,0.066112
0.127500,0.067629
0.130000,0.068768
0.132500,0.069437
0.135000,0.069429
0.137500,0.068376
0.140000,0.065915
0.142500,0.061994
0.145000,0.057191
0.147500,0.052823
0.150000,0.050763
0.152500,0.052986
0.155000,0.061006
0.157500,0.075399
0.160000,0.095590
0.162500,0.119923
0.165000,0.145981
0.167500,0.171026
0.170000,0.192446
0.172500,0.208114
0.175000,0.216626
0.177500,0.217409
0.180000,0.210711
0.182500,0.197501
0.185000,0.179300
0.187500,0.157947
0.190000,0.135317
0.192500,0.113041
0.195000,0.092277
0.197500,0.073611
0.200000,0.057112
0.202500,0.042492
0.205000,0.029334
0.207500,0.017290
0.210000,0.006223
0.212500,-0.003720
0.215000,-0.012105
0.217500,-0.018282
0.220000,-0.021518
0.222500,-0.021209
0.225000,-0.017088
0.227500,-0.009412
0.230000,0.000976
0.232500,0.012719
0.235000,0.024153
0.237500,0.033611
0.240000,0.039742
0.242500,0.041779
0.245000,0.039675
0.247500,0.034107
0.250000,0.026309
0.252500,0.017806
0.255000,0.010078
0.257500,0.004236
0.260000,0.000775
0.262500,-0.000526
0.265000,-0.000545
0.267500,-0.000594
0.270000,-0.002084
0.272500,-0.006160
0.275000,-0.013383
0.277500,-0.023516
0.280000,-0.035488
0.282500,-0.047525
0.285000,-0.057467
0.287500,-0.063222
0.290000,-0.063244
0.292500,-0.056928
0.295000,-0.044766
0.297500,-0.028222
0.300000,-0.009333
0.302500,0.009786
0.305000,0.027379
0.307500,0.042278
0.310000,0.053903
0.312500,0.062126
0.315000,0.067107
0.317500,0.069200
0.320000,0.068926
0.322500,0.066956
0.325000,0.064040
0.327500,0.060881
0.330000,0.057985
0.332500,0.055596
0.335000,0.053743
0.337500,0.052399
0.340000,0.051679
0.342500,0.051960
0.345000,0.053847
0.347500,0.057949
0.350000,0.064548
0.352500,0.073275
0.355000,0.082932
0.357500,0.091572
0.360000,0.096833
0.362500,0.096466
0.365000,0.088907
0.367500,0.073753
0.370000,0.051992
0.372500,0.025944
0.375000,-0.001095
0.377500,-0.025416
0.380000,-0.043562
0.382500,-0.052958
0.385000,-0.052387
0.387500,-0.042227
0.390000,-0.024384
0.392500,-0.001936
0.395000,0.021464
0.397500,0.042334
0.400000,0.058085
0.402500,0.067534
0.405000,0.071070
0.407500,0.070375
0.410000,0.067800
0.412500,0.065583
0.415000,0.065181
0.417500,0.066927
0.420000,0.070080
0.422500,0.073183
0.425000,0.074574
0.427500,0.072875
0.430000,0.067359
0.432500,0.058152
0.435000,0.046241
0.437500,0.033310
0.440000,0.021393
0.442500,0.012454
0.445000,0.007972
0.447500,0.008662
0.450000,0.014368
0.452500,0.024128
0.455000,0.036335
0.457500,0.048945
0.460000,0.059724
0.462500,0.066546
0.465000,0.067756
0.467500,0.062521
0.470000,0.051081
0.472500,0.034762
0.475000,0.015703
0.477500,-0.003640
0.480000,-0.021064
0.482500,-0.035073
0.485000,-0.045059
0.487500,-0.051185
0.490000,-0.054047
0.492500,-0.054281
0.495000,-0.052308
0.497500,-0.048291
0.500000,-0.042284
0.502500,-0.034429
0.505000,-0.025045
0.507500,-0.014538
0.510000,-0.003217
0.512500,0.008850
0.515000,0.021792
0.517500,0.035716
0.520000,0.050455
0.522500,0.065461
0.525000,0.079952
0.527500,0.093245
0.530000,0.105080
0.532500,0.115748
0.535000,0.125941
0.537500,0.136377
0.540000,0.147366
0.542500,0.158492
0.545000,0.168526
0.547500,0.175599
0.550000,0.177620
0.552500,0.172817
0.555000,0.160274
0.557500,0.140288
0.560000,0.114412
0.562500,0.085155
0.565000,0.055423
0.567500,0.027882
0.570000,0.004457
0.572500,-0.013913
0.575000,-0.027226
0.577500,-0.036159
0.580000,-0.041716
0.582500,-0.044883
0.585000,-0.046383
0.587500,-0.046548
0.590000,-0.045322
0.592500,-0.042379
0.595000,-0.037310
0.597500,-0.029806
0.600000,-0.019789
0.602500,-0.007446
0.605000,0.006802
0.607500,0.022357
0.610000,0.038487
0.612500,0.054349
0.615000,0.069042
0.617500,0.081722
0.620000,0.091787
0.622500,0.099074
0.625000,0.103959
0.627500,0.107274
0.630000,0.110023
0.632500,0.112974
0.635000,0.116276
0.637500,0.119270
0.640000,0.120596
0.642500,0.118594
0.645000,0.111866
0.647500,0.099790
0.650000,0.082786
0.652500,0.062195
0.655000,0.039846
0.657500,0.017494
0.660000,-0.003592
0.662500,-0.022725
0.665000,-0.039550
0.667500,-0.053647
0.670000,-0.064228
0.672500,-0.070142
0.675000,-0.070200
0.677500,-0.063647
0.680000,-0.050556
0.682500,-0.031935
0.685000,-0.009533
0.687500,0.014547
0.690000,0.038249
0.692500,0.059818
0.695000,0.077899
0.697500,0.091519
0.700000,0.100057
0.702500,0.103250
0.705000,0.101216
0.707500,0.094445
0.710000,0.083711
0.712500,0.069913
0.715000,0.053924
0.717500,0.036526
0.720000,0.018462
0.722500,0.000586
0.725000,-0.016000
0.727500,-0.029933
0.730000,-0.039757
0.732500,-0.044250
0.735000,-0.042803
0.737500,-0.035684
0.740000,-0.024080
0.742500,-0.009863
0.745000,0.004832
0.747500,0.018098
0.750000,0.028636
0.752500,0.035929
0.755000,0.040173
0.757500,0.042040
0.760000,0.042370
0.762500,0.041919
0.765000,0.041221
0.767500,0.040587
0.770000,0.040200
0.772500,0.040235
0.775000,0.040916
0.777500,0.042497
0.780000,0.045153
0.782500,0.048852
0.785000,0.053294
0.787500,0.057986
0.790000,0.062431
0.792500,0.066385
0.795000,0.070043
0.797500,0.074053
0.800000,0.079302
0.802500,0.086541
0.805000,0.095986
0.807500,0.107065
0.810000,0.118447
0.812500,0.128328
0.815000,0.134904
0.817500,0.136825
0.820000,0.133483
0.822500,0.125060
0.825000,0.112368
0.827500,0.096577
0.830000,0.078987
0.832500,0.060881
0.835000,0.043508
0.837500,0.028089
0.840000,0.015785
0.842500,0.007573
0.845000,0.004018
0.847500,0.005044
0.850000,0.009801
0.852500,0.016711
0.855000,0.023718
0.857500,0.028678
0.860000,0.029800
0.862500,0.025996
0.865000,0.017079
0.867500,0.003778
0.870000,-0.012440
0.872500,-0.029679
0.875000,-0.045985
0.877500,-0.059732
0.880000,-0.069903
0.882500,-0.076219
0.885000,-0.079068
0.887500,-0.079258
0.890000,-0.077678
0.892500,-0.074989
0.895000,-0.071437
0.897500,-0.066862
0.900000,-0.060881
0.902500,-0.053160
0.905000,-0.043653
0.907500,-0.032725
0.910000,-0.021092
0.912500,-0.009617
0.915000,0.000959
0.917500,0.010227
0.920000,0.018196
0.922500,0.025205
0.925000,0.031732
0.927500,0.038169
0.930000,0.044670
0.932500,0.051097
0.935000,0.057074
0.937500,0.062091
0.940000,0.065640
0.942500,0.067331
0.945000,0.066979
0.947500,0.064655
0.950000,0.060680
0.952500,0.055551
0.955000,0.049813
0.957500,0.043922
0.960000,0.038146
0.962500,0.032551
0.965000,0.027096
0.967500,0.021786
0.970000,0.016830
0.972500,0.012714
0.975000,0.010133
0.977500,0.009799
0.980000,0.012186
0.982500,0.017322
0.985000,0.024695
0.987500,0.033324
0.990000,0.041947
0.992500,0.049259
0.995000,0.054149
0.997500,0.055874
1.000000,0.054191
1.002500,0.049394
1.005000,0.042285
1.007500,0.034017
1.010000,0.025856
1.012500,0.018892
1.015000,0.013806
1.017500,0.010772
1.020000,0.009513
1.022500,0.009474
1.025000,0.010025
1.027500,0.010593
1.030000,0.010689
1.032500,0.009865
1.035000,0.007661
1.037500,0.003630
1.040000,-0.002517
1.042500,-0.010694
1.045000,-0.020251
1.047500,-0.029907
1.050000,-0.037903
1.052500,-0.042347
1.055000,-0.041648
1.057500,-0.034910
1.060000,-0.022158
1.062500,-0.004325
1.065000,0.016953
1.067500,0.039675
1.070000,0.061813
1.072500,0.081587
1.075000,0.097622
1.077500,0.108994
1.080000,0.115197
1.082500,0.116071
1.085000,0.111712
1.087500,0.102412
1.090000,0.088640
1.092500,0.071055
1.095000,0.050571
1.097500,0.028379
1.100000,0.005922
1.102500,-0.015247
1.105000,-0.033682
1.107500,-0.048282
1.110000,-0.058465
1.112500,-0.064209
1.115000,-0.065952
1.117500,-0.064405
1.120000,-0.060358
1.122500,-0.054549
1.125000,-0.047624
1.127500,-0.040165
1.130000,-0.032741
1.132500,-0.025905
1.135000,-0.020130
1.137500,-0.015693
1.140000,-0.012554
1.142500,-0.010304
1.145000,-0.008212
1.147500,-0.005384
1.150000,-0.000988
1.152500,0.005516
1.155000,0.014215
1.157500,0.024695
1.160000,0.036106
1.162500,0.047330
1.165000,0.057185
1.167500,0.064637
1.170000,0.068985
1.172500,0.069985
1.175000,0.067889
1.177500,0.063399
1.180000,0.057509
1.182500,0.051302
1.185000,0.045719
1.187500,0.041410
1.190000,0.038683
1.192500,0.037557
1.195000,0.037877
1.197500,0.039410
1.200000,0.041914
1.202500,0.045145
1.205000,0.048868
1.207500,0.052867
1.210000,0.056984
1.212500,0.061135
1.215000,0.065298
1.217500,0.069471
1.220000,0.073616
1.222500,0.077627
1.225000,0.081332
1.227500,0.084516
1.230000,0.086934
1.232500,0.088304
1.235000,0.088306
1.237500,0.086591
1.240000,0.082849
1.242500,0.076936
1.245000,0.069006
1.247500,0.059609
1.250000,0.049684
1.252500,0.040419
1.255000,0.032984
1.257500,0.028215
1.260000,0.026367
1.262500,0.027005
1.265000,0.029113
1.267500,0.031367
1.270000,0.032485
1.272500,0.031533
1.275000,0.028092
1.277500,0.022282
1.280000,0.014645
1.282500,0.005988
1.285000,-0.002764
1.287500,-0.010672
1.290000,-0.016856
1.292500,-0.020571
1.295000,-0.021306
1.297500,-0.018903
1.300000,-0.013638
1.302500,-0.006222
1.305000,0.002318
1.307500,0.010839
1.310000,0.018327
1.312500,0.024096
1.315000,0.027905
1.317500,0.029972
1.320000,0.030868
1.322500,0.031337
1.325000,0.032066
1.327500,0.033475
1.330000,0.035595
1.332500,0.038076
1.335000,0.040334
1.337500,0.041768
1.340000,0.041982
1.342500,0.040906
1.345000,0.038784
1.347500,0.036046
1.350000,0.033129
1.352500,0.030322
1.355000,0.027704
1.357500,0.025177
1.360000,0.022584
1.362500,0.019825
1.365000,0.016926
1.367500,0.014037
1.370000,0.011371
1.372500,0.009141
1.375000,0.007515
1.377500,0.006629
1.380000,0.006606
1.382500,0.007574
1.385000,0.009662
1.387500,0.012949
1.390000,0.017434
1.392500,0.022993
1.395000,0.029391
1.397500,0.036298
1.400000,0.043326
1.402500,0.050068
1.405000,0.056125
1.407500,0.061118
1.410000,0.064699
1.412500,0.066552
1.415000,0.066403
1.417500,0.064053
1.420000,0.059430
1.422500,0.052654
1.425000,0.044101
1.427500,0.034437
1.430000,0.024594
1.432500,0.015683
1.435000,0.008829
1.437500,0.004965
1.440000,0.004634
1.442500,0.007839
1.445000,0.014027
1.447500,0.022194
1.450000,0.031109
1.452500,0.039566
1.455000,0.046608
1.457500,0.051631
1.460000,0.054362
1.462500,0.054750
1.465000,0.052825
1.467500,0.048618
1.470000,0.042179
1.472500,0.033678
1.475000,0.023545
1.477500,0.012546
1.480000,0.001745
1.482500,-0.007651
1.485000,-0.014525
1.487500,-0.018049
1.490000,-0.017807
1.492500,-0.013790
1.495000,-0.006315
1.497500,0.004077
1.500000,0.016684
1.502500,0.030657
1.505000,0.044990
1.507500,0.058547
1.510000,0.070157
1.512500,0.078769
1.515000,0.083640
1.517500,0.084478
1.520000,0.081491
1.522500,0.075337
1.525000,0.066979
1.527500,0.057527
1.530000,0.048098
1.532500,0.039728
1.535000,0.033319
1.537500,0.029601
1.540000,0.029075
1.542500,0.031927
1.545000,0.037939
1.547500,0.046425
1.550000,0.056245
1.552500,0.065926
1.555000,0.073894
1.557500,0.078770
1.560000,0.079660
1.562500,0.076339
1.565000,0.069246
1.567500,0.059299
1.570000,0.047578
1.572500,0.035019
1.575000,0.022247
1.577500,0.009613
1.580000,-0.002607
1.582500,-0.013988
1.585000,-0.023842
1.587500,-0.031317
1.590000,-0.035683
1.592500,-0.036668
1.595000,-0.034693
1.597500,-0.030865
1.600000,-0.026714
1.602500,-0.023757
1.605000,-0.023041
1.607500,-0.024826
1.610000,-0.028524
1.612500,-0.032892
1.615000,-0.036423
1.617500,-0.037795
1.620000,-0.036239
1.622500,-0.031738
1.625000,-0.025005
1.627500,-0.017267
1.630000,-0.009930
1.632500,-0.004208
1.635000,-0.000802
1.637500,0.000289
1.640000,-0.000219
1.642500,-0.001074
1.645000,-0.000819
1.647500,0.001806
1.650000,0.007502
1.652500,0.016193
1.655000,0.027017
1.657500,0.038507
1.660000,0.048912
1.662500,0.056543
1.665000,0.060096
1.667500,0.058871
1.670000,0.052907
1.672500,0.042993
1.675000,0.030569
1.677500,0.017504
1.680000,0.005779
1.682500,-0.002886
1.685000,-0.007353
1.687500,-0.007280
1.690000,-0.003149
1.692500,0.003883
1.695000,0.012288
1.697500,0.020523
1.700000,0.027354
1.702500,0.032081
1.705000,0.034612
1.707500,0.035404
1.710000,0.035322
1.712500,0.035428
1.715000,0.036767
1.717500,0.040150
1.720000,0.045974
1.722500,0.054083
1.725000,0.063729
1.727500,0.073653
1.730000,0.082292
1.732500,0.088076
1.735000,0.089761
1.737500,0.086702
1.740000,0.079008
1.742500,0.067529
1.745000,0.053689
1.747500,0.039219
1.750000,0.025853
1.752500,0.015047
1.755000,0.007770
1.757500,0.004385
1.760000,0.004623
1.762500,0.007646
1.765000,0.012201
1.767500,0.016849
1.770000,0.020223
1.772500,0.021269
1.775000,0.019409
1.777500,0.014600
1.780000,0.007262
1.782500,-0.001861
1.785000,-0.011877
1.787500,-0.021906
1.790000,-0.031190
1.792500,-0.039149
1.795000,-0.045397
1.797500,-0.049718
1.800000,-0.052045
1.802500,-0.052425
1.805000,-0.050992
1.807500,-0.047949
1.810000,-0.043545
1.812500,-0.038057
1.815000,-0.031763
1.817500,-0.024921
1.820000,-0.017760
1.822500,-0.010485
1.825000,-0.003298
1.827500,0.003576
1.830000,0.009879
1.832500,0.015325
1.835000,0.019626
1.837500,0.022525
1.840000,0.023831
1.842500,0.023443
1.845000,0.021382
1.847500,0.017821
1.850000,0.013108
1.852500,0.007761
1.855000,0.002419
1.857500,-0.002259
1.860000,-0.005710
1.862500,-0.007580
1.865000,-0.007779
1.867500,-0.006474
1.870000,-0.004034
1.872500,-0.000938
1.875000,0.002306
1.877500,0.005232
1.880000,0.007468
1.882500,0.008776
1.885000,0.009071
1.887500,0.008447
1.890000,0.007165
1.892500,0.005635
1.895000,0.004337
1.897500,0.003729
1.900000,0.004128
1.902500,0.005614
1.905000,0.007989
1.907500,0.010823
1.910000,0.013557
1.912500,0.015643
1.915000,0.016662
1.917500,0.016398
1.920000,0.014851
1.922500,0.012214
1.925000,0.008835
1.927500,0.005167
1.930000,0.001717
1.932500,-0.001026
1.935000,-0.002660
1.937500,-0.002932
1.940000,-0.001784
1.942500,0.000635
1.945000,0.003996
1.947500,0.007820
1.950000,0.011548
1.952500,0.014599
1.955000,0.016460
1.957500,0.016762
1.960000,0.015352
1.962500,0.012340
1.965000,0.008093
1.967500,0.003185
1.970000,-0.001689
1.972500,-0.005818
1.975000,-0.008573
1.977500,-0.009476
1.980000,-0.008257
1.982500,-0.004871
1.985000,0.000488
1.987500,0.007419
1.990000,0.015367
1.992500,0.023708
1.995000,0.031833
1.997500,0.039226
2.000000,0.045505
